Folder: VIPR/exp/reg_uci_concrete

File: concrete.csv
Cement, Blast Furnace Slag, Fly Ash, Water, Superplasticizer, Coarse Aggregate, Fine Aggregate, Age (day), Concrete compressive strength (MPa)
540,0.000000,0.000000,162,2.500000,1040,676,28,79.99
380,95,0.000000,228,0.000000,932,594,365,43.7
427.5,47.5,0.000000,228,0.000000,932,594,270,43.01
380,95,0.000000,228,0.000000,932,594,90,40.56
380,0.000000,0.000000,228,0.000000,932,670,365,52.52
304,76,0.000000,228,0.000000,932,670,365,55.26
237.5,237.5,0.000000,228,0.000000,932,594,28,30.08
237.5,237.5,0.000000,228,0.000000,932,594,365,39
237.5,237.5,0.000000,228,0.000000,932,594,7.000000,26.26
139.6,209.4,0.000000,192,0.000000,1047,806.9,7.000000,14.59
304,76,0.000000,228,0.000000,932,670,270,54.38
139.6,209.4,0.000000,192,0.000000,1047,806.9,360,44.7
425,106.3,0.000000,153.5,16.5,852.1,887.1,3.000000,33.4
388.6,97.1,0.000000,157.9,12.1,852.1,925.7,3.000000,28.1
323.7,282.8,0.000000,183.8,10.3,942.7,659.9,3.000000,28.3
389.9,189,0.000000,145.9,22,944.7,755.8,3.000000,40.6
425,106.3,0.000000,151.4,18.6,936,803.7,7.000000,46.8
531.3,0.000000,0.000000,141.8,28.2,852.1,893.7,7.000000,46.9
379.5,151.2,0.000000,153.9,15.9,1134.3,605,7.000000,47.1
362.6,189,0.000000,164.9,11.6,944.7,755.8,7.000000,22.9
375,93.8,0.000000,126.6,23.4,852.1,992.6,28,56.7
425,106.3,0.000000,153.5,16.5,852.1,887.1,28,60.29
362.6,189,0.000000,164.9,11.6,944.7,755.8,28,71.3
337.9,189,0.000000,174.9,9.500000,944.7,755.8,28,49.9
475,118.8,0.000000,181.1,8.900000,852.1,781.5,56,72.3
318.8,212.5,0.000000,155.7,14.3,852.1,880.4,56,66.1
286.3,200.9,0.000000,144.7,11.2,1004.6,803.7,56,72.99
374,189.2,0.000000,170.1,10.1,926.1,756.7,91,64.9
469,117.2,0.000000,137.8,32.2,852.1,840.5,91,70.7
401.8,94.7,0.000000,147.4,11.4,946.8,852.1,91,75.5
439,177,0.000000,186,11.1,884.9,707.9,91,73.3
222.4,0.000000,96.7,189.3,4.500000,967.1,870.3,28,24.89
233.8,0.000000,94.6,197.9,4.600000,947,852.2,56,27.66
194.7,0.000000,100.5,165.6,7.500000,1006.4,905.9,100,37.34
212.1,0.000000,121.6,180.3,5.700000,1057.6,779.3,3.000000,12.47
230,0.000000,118.3,195.5,4.600000,1029.4,758.6,14,20.08
190.3,0.000000,125.2,161.9,9.900000,1088.1,802.6,28,28.47
166.1,0.000000,163.3,176.5,4.500000,1058.6,780.1,56,28.63
168,42.1,163.8,121.8,5.700000,1058.7,780.1,100,39.23
213.8,98.1,24.5,181.7,6.700000,1066,785.5,3.000000,13.18
229.7,0.000000,118.2,195.2,6.100000,1028.1,757.6,14,22.32
238.1,0.000000,94.1,186.7,7.000000,949.9,847,28,30.23
250,0.000000,95.7,187.4,5.500000,956.9,861.2,56,38.33
212.5,0.000000,100.4,159.3,8.700000,1007.8,903.6,100,42.92
212,0.000000,124.8,159,7.800000,1085.4,799.5,3.000000,19.52
231.8,0.000000,121.6,174,6.700000,1056.4,778.5,14,26.77
251.4,0.000000,118.3,188.5,5.800000,1028.4,757.7,28,29.65
251.4,0.000000,118.3,188.5,6.400000,1028.4,757.7,56,36.64
181.4,0.000000,167,169.6,7.600000,1055.6,777.8,100,45.37
168.9,42.2,124.3,158.3,10.8,1080.8,796.2,3.000000,7.400000
290.4,0.000000,96.2,168.1,9.400000,961.2,865,14,34.67
277.1,0.000000,97.4,160.6,11.8,973.9,875.6,28,48.28
295.7,0.000000,95.6,171.5,8.900000,955.1,859.2,56,48.72
251.8,0.000000,99.9,146.1,12.4,1006,899.8,100,45.37
252.3,0.000000,98.8,146.3,14.2,987.8,889,3.000000,21.78
246.8,0.000000,125.1,143.3,12,1086.8,800.9,14,42.22
275.1,0.000000,121.4,159.5,9.900000,1053.6,777.5,28,51.33
297.2,0.000000,117.5,174.8,9.500000,1022.8,753.5,56,51.96
213.7,0.000000,174.7,154.8,10.2,1053.5,776.4,100,50.08
277.2,97.8,24.5,160.7,11.2,1061.7,782.5,3.000000,30.45
218.2,54.6,123.8,140.8,11.9,1075.7,792.7,14,35.96
214.9,53.8,121.9,155.6,9.600000,1014.3,780.6,28,52.2
218.9,0.000000,124.1,158.5,11.3,1078.7,794.9,56,37.27
376,0.000000,0.000000,214.6,0.000000,1003.5,762.4,100,43.06
516,0.000000,0.000000,162,8.200000,801,802,28,41.37
450.1,50,0.000000,200,3.000000,1124.4,613.2,28,39.38
516,0.000000,0.000000,162,8.300000,801,802,28,41.37
285,190,0.000000,163,7.600000,1031,685,28,53.58
178,129.8,118.6,179.9,3.600000,1007.3,746.8,3.000000,20.73
190.3,0.000000,125.2,166.6,9.900000,1079,798.9,3.000000,12.55
165,128.5,132.1,175.1,8.100000,1005.8,746.6,14,33.09
173.8,93.4,159.9,172.3,9.700000,1007.2,746.6,14,29.55
165,0.000000,143.6,163.8,0.000000,1005.6,900.9,28,26.2
167,75.4,167,164,7.900000,1007.3,770.1,28,41.41
251.4,0.000000,118.3,192.9,5.800000,1043.6,754.3,28,33.27
173.5,50.1,173.5,164.8,6.500000,1006.2,793.5,56,53.77
194.7,0.000000,100.5,170.2,7.500000,998,901.8,56,43.39
172.4,13.6,172.4,156.8,4.100000,1006.3,856.4,100,37.68
213.5,0.000000,174.2,159.2,11.7,1043.6,771.9,100,52.96
446,24,79,162,10.3,967,712,28,53.39
446,24,79,162,11.6,967,712,7.000000,39.3
387,20,94,157,13.9,938,845,28,46.68
387,20,94,157,13.9,938,845,7.000000,45.9
355,19,97,145,12.3,967,871,28,55.45
491,26,123,201,3.900000,822,699,3.000000,29.55
424,22,132,178,8.500000,822,750,7.000000,39
202,11,141,206,1.700000,942,801,3.000000,9.850000
284,15,141,179,5.500000,842,801,56,44.52
359,19,141,154,10.9,942,801,7.000000,38.61
393,0.000000,0.000000,192,0.000000,940.6,785.6,3.000000,19.2
480,0.000000,0.000000,192,0.000000,936.2,712.2,3.000000,24.4
333,0.000000,0.000000,192,0.000000,931.2,842.6,28,31.97
158.8,238.2,0.000000,185.7,0.000000,1040.6,734.3,7.000000,9.620000
272.8,181.9,0.000000,185.7,0.000000,1012.4,714.3,7.000000,19.77
158.8,238.2,0.000000,185.7,0.000000,1040.6,734.3,28,21.07
295.8,0.000000,0.000000,185.7,0.000000,1091.4,769.3,28,25.22
339.2,0.000000,0.000000,185.7,0.000000,1069.2,754.3,7.000000,21.18
170.3,155.5,0.000000,185.7,0.000000,1026.6,724.3,28,25.73
186.2,124.1,0.000000,185.7,0.000000,1083.4,764.3,7.000000,8.000000
316.1,210.7,0.000000,185.7,0.000000,977,689.3,7.000000,24.44
339,0.000000,0.000000,197,0.000000,968,781,14,27.04
236,0.000000,0.000000,194,0.000000,968,885,14,12.84
277,0.000000,0.000000,191,0.000000,968,856,28,25.97
254,0.000000,0.000000,198,0.000000,968,863,90,26.94
307,0.000000,0.000000,193,0.000000,968,812,28,27.53
225,0.000000,0.000000,181,0.000000,1113,833,28,17.34
300,0.000000,0.000000,184,0.000000,1075,795,28,26.85
250,0.000000,0.000000,182,0.000000,1100,820,28,20.87
141.3,212,0.000000,203.5,0.000000,971.8,748.5,28,29.89
122.6,183.9,0.000000,203.5,0.000000,958.2,800.1,28,24.29
116,173,0.000000,192,0.000000,909.8,891.9,90,31.02
192,288,0.000000,192,0.000000,929.8,716.1,3.000000,12.79
173,116,0.000000,192,0.000000,946.8,856.8,3.000000,6.940000
288,192,0.000000,192,0.000000,932,717.8,28,38.8
192,288,0.000000,192,0.000000,929.8,716.1,90,50.73
288,192,0.000000,192,0.000000,932,717.8,7.000000,23.52
183.9,122.6,0.000000,203.5,0.000000,959.2,800,7.000000,10.79
200,133,0.000000,192,0.000000,965.4,806.2,7.000000,17.17
116,173,0.000000,192,0.000000,909.8,891.9,3.000000,6.280000
153,102,0.000000,192,0.000000,888,943.1,7.000000,8.370000
203.5,305.3,0.000000,203.5,0.000000,963.4,630,90,51.86
331,0.000000,0.000000,192,0.000000,1025,821,3.000000,14.31
349,0.000000,0.000000,192,0.000000,1056,809,7.000000,9.010000
296,0.000000,0.000000,186,0.000000,1090,769,7.000000,18.91
281,0.000000,0.000000,186,0.000000,1104,774,7.000000,14.5
500,0.000000,0.000000,200,0.000000,1125,613,28,44.09
540,0.000000,0.000000,173,0.000000,1125,613,270,74.17
350,0.000000,0.000000,203,0.000000,974,775,180,32.72
331,0.000000,0.000000,192,0.000000,978,825,180,39
382,0.000000,0.000000,186,0.000000,1111,784,7.000000,11.47
238,0.000000,0.000000,185,0.000000,1118,789,28,17.54
331,0.000000,0.000000,192,0.000000,978,825,28,31.45
349,0.000000,0.000000,192,0.000000,1047,806,360,42.13
500,0.000000,0.000000,200,0.000000,1125,613,270,55.16
393,0.000000,0.000000,192,0.000000,940,758,28,39.58
310,0.000000,0.000000,192,0.000000,970,850,7.000000,14.99
525,0.000000,0.000000,189,0.000000,1125,613,7.000000,42.42
322,0.000000,0.000000,203,0.000000,974,800,28,25.18
522,0.000000,0.000000,146,0.000000,896,896,28,74.99
310,143,111,168,22,914,651,28,33.69
310,143,0.000000,168,10,914,804,28,45.3
366,187,0.000000,191,7.000000,824,757,28,65.91
298,0.000000,107,186,6.000000,879,815,28,42.64
322,149,0.000000,186,8.000000,951,709,28,52.42
298,0.000000,107,210,11,880,744,28,31.87
149,139,109,193,6.000000,892,780,28,23.69
146,230,0.000000,202,3.000000,827,872,28,33.06
140,133,103,200,7.000000,916,753,28,36.44
153,145,0.000000,178,8.000000,1000,822,28,19.01
143,169,143,191,8.000000,967,643,28,29.72
150,237,0.000000,174,12,1069,675,28,37.43
266,112,87,178,10,910,745,28,39.42
277,117,91,191,7.000000,946,666,28,43.57
145,0.000000,179,202,8.000000,824,869,28,10.54
136,196,98,199,6.000000,847,783,28,26.97
159,209,161,201,7.000000,848,669,28,30.88
236.9,91.7,71.5,246.9,6.000000,852.9,695.4,28,28.63
313.3,145,0.000000,178.5,8.000000,867.2,824,28,40.93
153.1,145,113,178.5,8.000000,867.2,824,28,26.23
150.7,0.000000,185.3,166.7,15.6,1074.5,678,28,13.46
284,119.7,0.000000,168.3,7.200000,970.4,794.2,28,40.93
154.8,0.000000,142.8,193.3,9.100000,1047.4,696.7,28,12.46
145.7,172.6,0.000000,181.9,3.400000,985.8,816.8,28,23.74
155.2,183.9,143.2,193.8,9.200000,879.6,698.5,28,28.99
154.8,0.000000,142.8,193.3,9.100000,877.2,867.7,28,9.740000
151.8,178.1,138.7,167.5,18.3,944,694.6,28,36.35
152.6,238.7,0.000000,200,6.300000,1001.8,683.9,28,26.86
321.3,164.2,0.000000,190.5,4.600000,870,774,28,57.22
160.2,188,146.4,203.2,11.3,828.7,709.7,28,35.31
132,206.5,160.9,178.9,5.500000,866.9,735.6,28,33.31
288.4,121,0.000000,177.4,7.000000,907.9,829.5,28,42.14
322.2,0.000000,115.6,196,10.4,817.9,813.4,28,31.18
260.9,100.5,78.3,200.6,8.600000,864.5,761.5,28,32.4